; WAVELENGTH MAT._REFRACTIVE_INDEX MAT._ABSORPTION
190.00000 1.55969 0.00025 
191.05453 1.55768 0.00008 
192.10905 1.55571 -0.00008 
193.16358 1.55378 -0.00023 
194.21811 1.55190 -0.00038 
195.27264 1.55006 -0.00052 
196.32716 1.54825 -0.00065 
197.38169 1.54648 -0.00078 
198.43622 1.54475 -0.00090 
199.49075 1.54306 -0.00102 
200.54527 1.54140 -0.00113 
201.59980 1.53977 -0.00123 
202.65433 1.53818 -0.00133 
203.70885 1.53661 -0.00143 
204.76338 1.53508 -0.00152 
205.81791 1.53358 -0.00160 
206.87244 1.53211 -0.00168 
207.92696 1.53067 -0.00176 
208.98149 1.52926 -0.00183 
210.03602 1.52787 -0.00190 
211.09055 1.52651 -0.00197 
212.14507 1.52518 -0.00203 
213.19960 1.52387 -0.00209 
214.25413 1.52259 -0.00214 
215.30865 1.52133 -0.00219 
216.36318 1.52010 -0.00224 
217.41771 1.51888 -0.00229 
218.47224 1.51769 -0.00233 
219.52676 1.51652 -0.00237 
220.58129 1.51538 -0.00241 
221.63582 1.51425 -0.00244 
222.69035 1.51315 -0.00247 
223.74487 1.51206 -0.00250 
224.79940 1.51099 -0.00253 
225.85393 1.50994 -0.00255 
226.90845 1.50891 -0.00258 
227.96298 1.50790 -0.00260 
229.01751 1.50691 -0.00262 
230.07204 1.50593 -0.00264 
231.12656 1.50497 -0.00265 
232.18109 1.50403 -0.00267 
233.23562 1.50310 -0.00268 
234.29015 1.50219 -0.00269 
235.34467 1.50129 -0.00270 
236.39920 1.50041 -0.00270 
237.45373 1.49954 -0.00271 
238.50825 1.49869 -0.00271 
239.56278 1.49785 -0.00272 
240.61731 1.49703 -0.00272 
241.67184 1.49622 -0.00272 
242.72636 1.49542 -0.00272 
243.78089 1.49463 -0.00272 
244.83542 1.49386 -0.00272 
245.88994 1.49310 -0.00271 
246.94447 1.49235 -0.00271 
247.99900 1.49161 -0.00270 
249.05353 1.49089 -0.00270 
250.10805 1.49018 -0.00269 
251.16258 1.48947 -0.00268 
252.21711 1.48878 -0.00267 
253.27164 1.48810 -0.00266 
254.32616 1.48743 -0.00265 
255.38069 1.48677 -0.00264 
256.43522 1.48612 -0.00263 
257.48974 1.48548 -0.00261 
258.54427 1.48484 -0.00260 
259.59880 1.48422 -0.00259 
260.65333 1.48361 -0.00257 
261.70785 1.48301 -0.00256 
262.76238 1.48241 -0.00254 
263.81691 1.48182 -0.00252 
264.87144 1.48125 -0.00251 
265.92596 1.48068 -0.00249 
266.98049 1.48012 -0.00247 
268.03502 1.47956 -0.00245 
269.08954 1.47902 -0.00244 
270.14407 1.47848 -0.00242 
271.19860 1.47795 -0.00240 
272.25313 1.47743 -0.00238 
273.30765 1.47691 -0.00236 
274.36218 1.47640 -0.00234 
275.41671 1.47590 -0.00232 
276.47124 1.47541 -0.00230 
277.52576 1.47492 -0.00227 
278.58029 1.47444 -0.00225 
279.63482 1.47397 -0.00223 
280.68934 1.47350 -0.00221 
281.74387 1.47304 -0.00219 
282.79840 1.47258 -0.00216 
283.85293 1.47213 -0.00214 
284.90745 1.47169 -0.00212 
285.96198 1.47125 -0.00210 
287.01651 1.47082 -0.00207 
288.07104 1.47039 -0.00205 
289.12556 1.46997 -0.00203 
290.18009 1.46956 -0.00200 
291.23462 1.46915 -0.00198 
292.28914 1.46874 -0.00195 
293.34367 1.46834 -0.00193 
294.39820 1.46795 -0.00191 
295.45273 1.46756 -0.00188 
296.50725 1.46718 -0.00186 
297.56178 1.46680 -0.00183 
298.61631 1.46642 -0.00181 
299.67084 1.46605 -0.00178 
300.72536 1.46569 -0.00176 
301.77989 1.46533 -0.00173 
302.83442 1.46497 -0.00171 
303.88894 1.46462 -0.00168 
304.94347 1.46427 -0.00166 
305.99800 1.46393 -0.00163 
307.05253 1.46359 -0.00161 
308.10705 1.46325 -0.00158 
309.16158 1.46292 -0.00156 
310.21611 1.46259 -0.00153 
311.27064 1.46227 -0.00151 
312.32516 1.46195 -0.00148 
313.37969 1.46163 -0.00146 
314.43422 1.46132 -0.00143 
315.48874 1.46101 -0.00141 
316.54327 1.46071 -0.00138 
317.59780 1.46041 -0.00136 
318.65233 1.46011 -0.00133 
319.70685 1.45982 -0.00131 
320.76138 1.45952 -0.00128 
321.81591 1.45924 -0.00126 
322.87044 1.45895 -0.00123 
323.92496 1.45867 -0.00121 
324.97949 1.45839 -0.00118 
326.03402 1.45812 -0.00116 
327.08854 1.45785 -0.00113 
328.14307 1.45758 -0.00111 
329.19760 1.45731 -0.00109 
330.25213 1.45705 -0.00106 
331.30665 1.45679 -0.00104 
332.36118 1.45653 -0.00101 
333.41571 1.45628 -0.00099 
334.47024 1.45603 -0.00096 
335.52476 1.45578 -0.00094 
336.57929 1.45553 -0.00091 
337.63382 1.45529 -0.00089 
338.68834 1.45505 -0.00087 
339.74287 1.45481 -0.00084 
340.79740 1.45457 -0.00082 
341.85193 1.45434 -0.00080 
342.90645 1.45411 -0.00077 
343.96098 1.45388 -0.00075 
345.01551 1.45366 -0.00072 
346.07004 1.45343 -0.00070 
347.12456 1.45321 -0.00068 
348.17909 1.45299 -0.00065 
349.23362 1.45278 -0.00063 
350.28814 1.45256 -0.00061 
351.34267 1.45235 -0.00058 
352.39720 1.45214 -0.00056 
353.45173 1.45193 -0.00054 
354.50625 1.45173 -0.00051 
355.56078 1.45152 -0.00049 
356.61531 1.45132 -0.00047 
357.66983 1.45112 -0.00045 
358.72436 1.45092 -0.00042 
359.77889 1.45073 -0.00040 
360.83342 1.45053 -0.00038 
361.88794 1.45034 -0.00036 
362.94247 1.45015 -0.00033 
363.99700 1.44997 -0.00031 
365.05153 1.44978 -0.00029 
366.10605 1.44960 -0.00027 
367.16058 1.44941 -0.00025 
368.21511 1.44923 -0.00023 
369.26963 1.44905 -0.00020 
370.32416 1.44888 -0.00018 
371.37869 1.44870 -0.00016 
372.43322 1.44853 -0.00014 
373.48774 1.44835 -0.00012 
374.54227 1.44818 -0.00010 
375.59680 1.44802 -0.00008 
376.65133 1.44785 -0.00005 
377.70585 1.44768 -0.00003 
378.76038 1.44752 -0.00001 
379.81491 1.44736 0.00001 
380.86943 1.44719 0.00003 
381.92396 1.44704 0.00005 
382.97849 1.44688 0.00007 
384.03302 1.44672 0.00009 
385.08754 1.44657 0.00011 
386.14207 1.44641 0.00013 
387.19660 1.44626 0.00015 
388.25113 1.44611 0.00017 
389.30565 1.44596 0.00019 
390.36018 1.44581 0.00021 
391.41471 1.44566 0.00023 
392.46923 1.44552 0.00025 
393.52376 1.44537 0.00027 
394.57829 1.44523 0.00029 
395.63282 1.44509 0.00031 
396.68734 1.44495 0.00033 
397.74187 1.44481 0.00035 
398.79640 1.44467 0.00036 
399.85093 1.44453 0.00038 
400.90545 1.44440 0.00040 
401.95998 1.44427 0.00042 
403.01451 1.44413 0.00044 
404.06903 1.44400 0.00046 
405.12356 1.44387 0.00048 
406.17809 1.44374 0.00050 
407.23262 1.44361 0.00051 
408.28714 1.44348 0.00053 
409.34167 1.44336 0.00055 
410.39620 1.44323 0.00057 
411.45073 1.44311 0.00059 
412.50525 1.44298 0.00060 
413.55978 1.44286 0.00062 
414.61431 1.44274 0.00064 
415.66883 1.44262 0.00066 
416.72336 1.44250 0.00067 
417.77789 1.44238 0.00069 
418.83242 1.44227 0.00071 
419.88694 1.44215 0.00073 
420.94147 1.44204 0.00074 
421.99600 1.44192 0.00076 
423.05053 1.44181 0.00078 
424.10505 1.44170 0.00079 
425.15958 1.44158 0.00081 
426.21411 1.44147 0.00083 
427.26863 1.44136 0.00084 
428.32316 1.44126 0.00086 
429.37769 1.44115 0.00088 
430.43222 1.44104 0.00089 
431.48674 1.44094 0.00091 
432.54127 1.44083 0.00093 
433.59580 1.44073 0.00094 
434.65033 1.44062 0.00096 
435.70485 1.44052 0.00097 
436.75938 1.44042 0.00099 
437.81391 1.44032 0.00101 
438.86843 1.44022 0.00102 
439.92296 1.44012 0.00104 
440.97749 1.44002 0.00105 
442.03202 1.43992 0.00107 
443.08654 1.43982 0.00108 
444.14107 1.43973 0.00110 
445.19560 1.43963 0.00112 
446.25013 1.43954 0.00113 
447.30465 1.43944 0.00115 
448.35918 1.43935 0.00116 
449.41371 1.43926 0.00118 
450.46823 1.43916 0.00119 
451.52276 1.43907 0.00120 
452.57729 1.43898 0.00122 
453.63182 1.43889 0.00123 
454.68634 1.43880 0.00125 
455.74087 1.43871 0.00126 
456.79540 1.43863 0.00128 
457.84992 1.43854 0.00129 
458.90445 1.43845 0.00131 
459.95898 1.43837 0.00132 
461.01351 1.43828 0.00133 
462.06803 1.43820 0.00135 
463.12256 1.43811 0.00136 
464.17709 1.43803 0.00138 
465.23162 1.43795 0.00139 
466.28614 1.43786 0.00140 
467.34067 1.43778 0.00142 
468.39520 1.43770 0.00143 
469.44972 1.43762 0.00145 
470.50425 1.43754 0.00146 
471.55878 1.43746 0.00147 
472.61331 1.43738 0.00149 
473.66783 1.43731 0.00150 
474.72236 1.43723 0.00151 
475.77689 1.43715 0.00153 
476.83142 1.43708 0.00154 
477.88594 1.43700 0.00155 
478.94047 1.43692 0.00156 
479.99500 1.43685 0.00158 
481.04952 1.43678 0.00159 
482.10405 1.43670 0.00160 
483.15858 1.43663 0.00162 
484.21311 1.43656 0.00163 
485.26763 1.43648 0.00164 
486.32216 1.43641 0.00165 
487.37669 1.43634 0.00167 
488.43122 1.43627 0.00168 
489.48574 1.43620 0.00169 
490.54027 1.43613 0.00170 
491.59480 1.43606 0.00171 
492.64932 1.43599 0.00173 
493.70385 1.43593 0.00174 
494.75838 1.43586 0.00175 
495.81291 1.43579 0.00176 
496.86743 1.43572 0.00177 
497.92196 1.43566 0.00179 
498.97649 1.43559 0.00180 
500.03102 1.43553 0.00181 
501.08554 1.43546 0.00182 
502.14007 1.43540 0.00183 
503.19460 1.43533 0.00184 
504.24912 1.43527 0.00186 
505.30365 1.43521 0.00187 
506.35818 1.43514 0.00188 
507.41271 1.43508 0.00189 
508.46723 1.43502 0.00190 
509.52176 1.43496 0.00191 
510.57629 1.43490 0.00192 
511.63082 1.43484 0.00193 
512.68534 1.43477 0.00195 
513.73987 1.43471 0.00196 
514.79440 1.43466 0.00197 
515.84892 1.43460 0.00198 
516.90345 1.43454 0.00199 
517.95798 1.43448 0.00200 
519.01251 1.43442 0.00201 
520.06703 1.43436 0.00202 
521.12156 1.43431 0.00203 
522.17609 1.43425 0.00204 
523.23062 1.43419 0.00205 
524.28514 1.43414 0.00206 
525.33967 1.43408 0.00207 
526.39420 1.43403 0.00208 
527.44872 1.43397 0.00209 
528.50325 1.43392 0.00210 
529.55778 1.43386 0.00211 
530.61231 1.43381 0.00212 
531.66683 1.43375 0.00214 
532.72136 1.43370 0.00215 
533.77589 1.43365 0.00216 
534.83042 1.43360 0.00216 
535.88494 1.43354 0.00217 
536.93947 1.43349 0.00218 
537.99400 1.43344 0.00219 
539.04852 1.43339 0.00220 
540.10305 1.43334 0.00221 
541.15758 1.43329 0.00222 
542.21211 1.43324 0.00223 
543.26663 1.43319 0.00224 
544.32116 1.43314 0.00225 
545.37569 1.43309 0.00226 
546.43022 1.43304 0.00227 
547.48474 1.43299 0.00228 
548.53927 1.43294 0.00229 
549.59380 1.43289 0.00230 
550.64832 1.43284 0.00231 
551.70285 1.43280 0.00232 
552.75738 1.43275 0.00233 
553.81191 1.43270 0.00234 
554.86643 1.43266 0.00234 
555.92096 1.43261 0.00235 
556.97549 1.43256 0.00236 
558.03002 1.43252 0.00237 
559.08454 1.43247 0.00238 
560.13907 1.43243 0.00239 
561.19360 1.43238 0.00240 
562.24812 1.43234 0.00241 
563.30265 1.43229 0.00242 
564.35718 1.43225 0.00242 
565.41171 1.43220 0.00243 
566.46623 1.43216 0.00244 
567.52076 1.43212 0.00245 
568.57529 1.43207 0.00246 
569.62981 1.43203 0.00247 
570.68434 1.43199 0.00248 
571.73887 1.43194 0.00248 
572.79340 1.43190 0.00249 
573.84792 1.43186 0.00250 
574.90245 1.43182 0.00251 
575.95698 1.43178 0.00252 
577.01151 1.43174 0.00253 
578.06603 1.43169 0.00253 
579.12056 1.43165 0.00254 
580.17509 1.43161 0.00255 
581.22961 1.43157 0.00256 
582.28414 1.43153 0.00257 
583.33867 1.43149 0.00257 
584.39320 1.43145 0.00258 
585.44772 1.43141 0.00259 
586.50225 1.43137 0.00260 
587.55678 1.43134 0.00261 
588.61131 1.43130 0.00261 
589.66583 1.43126 0.00262 
590.72036 1.43122 0.00263 
591.77489 1.43118 0.00264 
592.82941 1.43114 0.00264 
593.88394 1.43111 0.00265 
594.93847 1.43107 0.00266 
595.99300 1.43103 0.00267 
597.04752 1.43099 0.00267 
598.10205 1.43096 0.00268 
599.15658 1.43092 0.00269 
600.21111 1.43088 0.00270 
601.26563 1.43085 0.00270 
602.32016 1.43081 0.00271 
603.37469 1.43078 0.00272 
604.42921 1.43074 0.00273 
605.48374 1.43071 0.00273 
606.53827 1.43067 0.00274 
607.59280 1.43064 0.00275 
608.64732 1.43060 0.00275 
609.70185 1.43057 0.00276 
610.75638 1.43053 0.00277 
611.81091 1.43050 0.00278 
612.86543 1.43046 0.00278 
613.91996 1.43043 0.00279 
614.97449 1.43040 0.00280 
616.02901 1.43036 0.00280 
617.08354 1.43033 0.00281 
618.13807 1.43030 0.00282 
619.19260 1.43026 0.00282 
620.24712 1.43023 0.00283 
621.30165 1.43020 0.00284 
622.35618 1.43016 0.00284 
623.41071 1.43013 0.00285 
624.46523 1.43010 0.00286 
625.51976 1.43007 0.00286 
626.57429 1.43004 0.00287 
627.62881 1.43001 0.00288 
628.68334 1.42997 0.00288 
629.73787 1.42994 0.00289 
630.79240 1.42991 0.00290 
631.84692 1.42988 0.00290 
632.90145 1.42985 0.00291 
633.95598 1.42982 0.00292 
635.01051 1.42979 0.00292 
636.06503 1.42976 0.00293 
637.11956 1.42973 0.00294 
638.17409 1.42970 0.00294 
639.22861 1.42967 0.00295 
640.28314 1.42964 0.00295 
641.33767 1.42961 0.00296 
642.39220 1.42958 0.00297 
643.44672 1.42955 0.00297 
644.50125 1.42952 0.00298 
645.55578 1.42949 0.00298 
646.61031 1.42946 0.00299 
647.66483 1.42944 0.00300 
648.71936 1.42941 0.00300 
649.77389 1.42938 0.00301 
650.82841 1.42935 0.00301 
651.88294 1.42932 0.00302 
652.93747 1.42929 0.00303 
653.99200 1.42927 0.00303 
655.04652 1.42924 0.00304 
656.10105 1.42921 0.00304 
657.15558 1.42918 0.00305 
658.21011 1.42916 0.00306 
659.26463 1.42913 0.00306 
660.31916 1.42910 0.00307 
661.37369 1.42908 0.00307 
662.42821 1.42905 0.00308 
663.48274 1.42902 0.00308 
664.53727 1.42900 0.00309 
665.59180 1.42897 0.00310 
666.64632 1.42894 0.00310 
667.70085 1.42892 0.00311 
668.75538 1.42889 0.00311 
669.80990 1.42887 0.00312 
670.86443 1.42884 0.00312 
671.91896 1.42882 0.00313 
672.97349 1.42879 0.00313 
674.02801 1.42876 0.00314 
675.08254 1.42874 0.00315 
676.13707 1.42871 0.00315 
677.19160 1.42869 0.00316 
678.24612 1.42867 0.00316 
679.30065 1.42864 0.00317 
680.35518 1.42862 0.00317 
681.40970 1.42859 0.00318 
682.46423 1.42857 0.00318 
683.51876 1.42854 0.00319 
684.57329 1.42852 0.00319 
685.62781 1.42850 0.00320 
686.68234 1.42847 0.00320 
687.73687 1.42845 0.00321 
688.79140 1.42842 0.00321 
689.84592 1.42840 0.00322 
690.90045 1.42838 0.00322 
691.95498 1.42835 0.00323 
693.00950 1.42833 0.00323 
694.06403 1.42831 0.00324 
695.11856 1.42828 0.00324 
696.17309 1.42826 0.00325 
697.22761 1.42824 0.00325 
698.28214 1.42822 0.00326 
699.33667 1.42819 0.00326 
700.39120 1.42817 0.00327 
701.44572 1.42815 0.00327 
702.50025 1.42813 0.00328 
703.55478 1.42811 0.00328 
704.60930 1.42808 0.00329 
705.66383 1.42806 0.00329 
706.71836 1.42804 0.00330 
707.77289 1.42802 0.00330 
708.82741 1.42800 0.00331 
709.88194 1.42798 0.00331 
710.93647 1.42795 0.00332 
711.99100 1.42793 0.00332 
713.04552 1.42791 0.00333 
714.10005 1.42789 0.00333 
715.15458 1.42787 0.00333 
716.20910 1.42785 0.00334 
717.26363 1.42783 0.00334 
718.31816 1.42781 0.00335 
719.37269 1.42779 0.00335 
720.42721 1.42777 0.00336 
721.48174 1.42775 0.00336 
722.53627 1.42773 0.00337 
723.59080 1.42771 0.00337 
724.64532 1.42769 0.00338 
725.69985 1.42767 0.00338 
726.75438 1.42765 0.00338 
727.80890 1.42763 0.00339 
728.86343 1.42761 0.00339 
729.91796 1.42759 0.00340 
730.97249 1.42757 0.00340 
732.02701 1.42755 0.00341 
733.08154 1.42753 0.00341 
734.13607 1.42751 0.00341 
735.19060 1.42749 0.00342 
736.24512 1.42747 0.00342 
737.29965 1.42745 0.00343 
738.35418 1.42743 0.00343 
739.40870 1.42741 0.00344 
740.46323 1.42739 0.00344 
741.51776 1.42738 0.00344 
742.57229 1.42736 0.00345 
743.62681 1.42734 0.00345 
744.68134 1.42732 0.00346 
745.73587 1.42730 0.00346 
746.79040 1.42728 0.00347 
747.84492 1.42726 0.00347 
748.89945 1.42725 0.00347 
749.95398 1.42723 0.00348 
751.00850 1.42721 0.00348 
752.06303 1.42719 0.00349 
753.11756 1.42717 0.00349 
754.17209 1.42716 0.00349 
755.22661 1.42714 0.00350 
756.28114 1.42712 0.00350 
757.33567 1.42710 0.00351 
758.39020 1.42709 0.00351 
759.44472 1.42707 0.00351 
760.49925 1.42705 0.00352 
761.55378 1.42703 0.00352 
762.60830 1.42702 0.00352 
763.66283 1.42700 0.00353 
764.71736 1.42698 0.00353 
765.77189 1.42697 0.00354 
766.82641 1.42695 0.00354 
767.88094 1.42693 0.00354 
768.93547 1.42692 0.00355 
769.98999 1.42690 0.00355 
771.04452 1.42688 0.00356 
772.09905 1.42687 0.00356 
773.15358 1.42685 0.00356 
774.20810 1.42683 0.00357 
775.26263 1.42682 0.00357 
776.31716 1.42680 0.00357 
777.37169 1.42679 0.00358 
778.42621 1.42677 0.00358 
779.48074 1.42675 0.00358 
780.53527 1.42674 0.00359 
781.58979 1.42672 0.00359 
782.64432 1.42671 0.00360 
783.69885 1.42669 0.00360 
784.75338 1.42667 0.00360 
785.80790 1.42666 0.00361 
786.86243 1.42664 0.00361 
787.91696 1.42663 0.00361 
788.97149 1.42661 0.00362 
790.02601 1.42660 0.00362 
791.08054 1.42658 0.00362 
792.13507 1.42657 0.00363 
793.18959 1.42655 0.00363 
794.24412 1.42654 0.00363 
795.29865 1.42652 0.00364 
796.35318 1.42651 0.00364 
797.40770 1.42649 0.00364 
798.46223 1.42648 0.00365 
799.51676 1.42646 0.00365 
800.57129 1.42645 0.00365 
801.62581 1.42643 0.00366 
802.68034 1.42642 0.00366 
803.73487 1.42640 0.00366 
804.78939 1.42639 0.00367 
805.84392 1.42637 0.00367 
806.89845 1.42636 0.00367 
807.95298 1.42634 0.00368 
809.00750 1.42633 0.00368 
810.06203 1.42632 0.00368 
811.11656 1.42630 0.00369 
812.17109 1.42629 0.00369 
813.22561 1.42627 0.00369 
814.28014 1.42626 0.00370 
815.33467 1.42625 0.00370 
816.38919 1.42623 0.00370 
817.44372 1.42622 0.00371 
818.49825 1.42620 0.00371 
819.55278 1.42619 0.00371 
820.60730 1.42618 0.00372 
821.66183 1.42616 0.00372 
822.71636 1.42615 0.00372 
823.77089 1.42614 0.00373 
824.82541 1.42612 0.00373 
825.87994 1.42611 0.00373 
826.93447 1.42610 0.00374 
827.98899 1.42608 0.00374 
829.04352 1.42607 0.00374 
830.09805 1.42606 0.00374 
831.15258 1.42604 0.00375 
832.20710 1.42603 0.00375 
833.26163 1.42602 0.00375 
834.31616 1.42600 0.00376 
835.37069 1.42599 0.00376 
836.42521 1.42598 0.00376 
837.47974 1.42597 0.00377 
838.53427 1.42595 0.00377 
839.58879 1.42594 0.00377 
840.64332 1.42593 0.00377 
841.69785 1.42591 0.00378 
842.75238 1.42590 0.00378 
843.80690 1.42589 0.00378 
844.86143 1.42588 0.00379 
845.91596 1.42586 0.00379 
846.97049 1.42585 0.00379 
848.02501 1.42584 0.00380 
849.07954 1.42583 0.00380 
850.13407 1.42582 0.00380 
851.18859 1.42580 0.00380 
852.24312 1.42579 0.00381 
853.29765 1.42578 0.00381 
854.35218 1.42577 0.00381 
855.40670 1.42575 0.00381 
856.46123 1.42574 0.00382 
857.51576 1.42573 0.00382 
858.57029 1.42572 0.00382 
859.62481 1.42571 0.00383 
860.67934 1.42570 0.00383 
861.73387 1.42568 0.00383 
862.78839 1.42567 0.00383 
863.84292 1.42566 0.00384 
864.89745 1.42565 0.00384 
865.95198 1.42564 0.00384 
867.00650 1.42563 0.00385 
868.06103 1.42561 0.00385 
869.11556 1.42560 0.00385 
870.17009 1.42559 0.00385 
871.22461 1.42558 0.00386 
872.27914 1.42557 0.00386 
873.33367 1.42556 0.00386 
874.38819 1.42555 0.00386 
875.44272 1.42554 0.00387 
876.49725 1.42552 0.00387 
877.55178 1.42551 0.00387 
878.60630 1.42550 0.00387 
879.66083 1.42549 0.00388 
880.71536 1.42548 0.00388 
881.76988 1.42547 0.00388 
882.82441 1.42546 0.00388 
883.87894 1.42545 0.00389 
884.93347 1.42544 0.00389 
885.98799 1.42543 0.00389 
887.04252 1.42541 0.00389 
888.09705 1.42540 0.00390 
889.15158 1.42539 0.00390 
890.20610 1.42538 0.00390 
891.26063 1.42537 0.00390 
892.31516 1.42536 0.00391 
893.36968 1.42535 0.00391 
894.42421 1.42534 0.00391 
895.47874 1.42533 0.00391 
896.53327 1.42532 0.00392 
897.58779 1.42531 0.00392 
898.64232 1.42530 0.00392 
899.69685 1.42529 0.00392 
900.75138 1.42528 0.00393 
901.80590 1.42527 0.00393 
902.86043 1.42526 0.00393 
903.91496 1.42525 0.00393 
904.96948 1.42524 0.00394 
906.02401 1.42523 0.00394 
907.07854 1.42522 0.00394 
908.13307 1.42521 0.00394 
909.18759 1.42520 0.00395 
910.24212 1.42519 0.00395 
911.29665 1.42518 0.00395 
912.35118 1.42517 0.00395 
913.40570 1.42516 0.00396 
914.46023 1.42515 0.00396 
915.51476 1.42514 0.00396 
916.56928 1.42513 0.00396 
917.62381 1.42512 0.00396 
918.67834 1.42511 0.00397 
919.73287 1.42510 0.00397 
920.78739 1.42509 0.00397 
921.84192 1.42508 0.00397 
922.89645 1.42507 0.00398 
923.95098 1.42506 0.00398 
925.00550 1.42505 0.00398 
926.06003 1.42504 0.00398 
927.11456 1.42503 0.00398 
928.16908 1.42502 0.00399 
929.22361 1.42502 0.00399 
930.27814 1.42501 0.00399 
931.33267 1.42500 0.00399 
932.38719 1.42499 0.00400 
933.44172 1.42498 0.00400 
934.49625 1.42497 0.00400 
935.55078 1.42496 0.00400 
936.60530 1.42495 0.00400 
937.65983 1.42494 0.00401 
938.71436 1.42493 0.00401 
939.76888 1.42492 0.00401 
940.82341 1.42492 0.00401 
941.87794 1.42491 0.00402 
942.93247 1.42490 0.00402 
943.98699 1.42489 0.00402 
945.04152 1.42488 0.00402 
946.09605 1.42487 0.00402 
947.15058 1.42486 0.00403 
948.20510 1.42485 0.00403 
949.25963 1.42484 0.00403 
950.31416 1.42484 0.00403 
951.36868 1.42483 0.00403 
952.42321 1.42482 0.00404 
953.47774 1.42481 0.00404 
954.53227 1.42480 0.00404 
955.58679 1.42479 0.00404 
956.64132 1.42478 0.00404 
957.69585 1.42478 0.00405 
958.75038 1.42477 0.00405 
959.80490 1.42476 0.00405 
960.85943 1.42475 0.00405 
961.91396 1.42474 0.00405 
962.96848 1.42473 0.00406 
964.02301 1.42473 0.00406 
965.07754 1.42472 0.00406 
966.13207 1.42471 0.00406 
967.18659 1.42470 0.00406 
968.24112 1.42469 0.00407 
969.29565 1.42468 0.00407 
970.35018 1.42468 0.00407 
971.40470 1.42467 0.00407 
972.45923 1.42466 0.00407 
973.51376 1.42465 0.00408 
974.56828 1.42464 0.00408 
975.62281 1.42464 0.00408 
976.67734 1.42463 0.00408 
977.73187 1.42462 0.00408 
978.78639 1.42461 0.00409 
979.84092 1.42460 0.00409 
980.89545 1.42460 0.00409 
981.94997 1.42459 0.00409 
983.00450 1.42458 0.00409 
984.05903 1.42457 0.00410 
985.11356 1.42457 0.00410 
986.16808 1.42456 0.00410 
987.22261 1.42455 0.00410 
988.27714 1.42454 0.00410 
989.33167 1.42453 0.00410 
990.38619 1.42453 0.00411 
991.44072 1.42452 0.00411 
992.49525 1.42451 0.00411 
993.54977 1.42450 0.00411 
994.60430 1.42450 0.00411 
995.65883 1.42449 0.00412 
996.71336 1.42448 0.00412 
997.76788 1.42447 0.00412 
998.82241 1.42447 0.00412 
999.87694 1.42446 0.00412 
1000.93147 1.42445 0.00412 
1001.98599 1.42444 0.00413 
1003.04052 1.42444 0.00413 
1004.09505 1.42443 0.00413 
1005.14957 1.42442 0.00413 
1006.20410 1.42441 0.00413 
1007.25863 1.42441 0.00414 
1008.31316 1.42440 0.00414 
1009.36768 1.42439 0.00414 
1010.42221 1.42439 0.00414 
1011.47674 1.42438 0.00414 
1012.53127 1.42437 0.00414 
1013.58579 1.42436 0.00415 
1014.64032 1.42436 0.00415 
1015.69485 1.42435 0.00415 
1016.74937 1.42434 0.00415 
1017.80390 1.42434 0.00415 
1018.85843 1.42433 0.00415 
1019.91296 1.42432 0.00416 
1020.96748 1.42432 0.00416 
1022.02201 1.42431 0.00416 
1023.07654 1.42430 0.00416 
1024.13107 1.42429 0.00416 
1025.18559 1.42429 0.00416 
1026.24012 1.42428 0.00417 
1027.29465 1.42427 0.00417 
1028.34917 1.42427 0.00417 
1029.40370 1.42426 0.00417 
1030.45823 1.42425 0.00417 
1031.51276 1.42425 0.00417 
1032.56728 1.42424 0.00418 
1033.62181 1.42423 0.00418 
1034.67634 1.42423 0.00418 
1035.73087 1.42422 0.00418 
1036.78539 1.42421 0.00418 
1037.83992 1.42421 0.00418 
1038.89445 1.42420 0.00419 
1039.94897 1.42419 0.00419 
1041.00350 1.42419 0.00419 
1042.05803 1.42418 0.00419 
1043.11256 1.42417 0.00419 
1044.16708 1.42417 0.00419 
1045.22161 1.42416 0.00420 
1046.27614 1.42415 0.00420 
1047.33067 1.42415 0.00420 
1048.38519 1.42414 0.00420 
1049.43972 1.42414 0.00420 
1050.49425 1.42413 0.00420 
1051.54877 1.42412 0.00420 
1052.60330 1.42412 0.00421 
1053.65783 1.42411 0.00421 
1054.71236 1.42410 0.00421 
1055.76688 1.42410 0.00421 
1056.82141 1.42409 0.00421 
1057.87594 1.42408 0.00421 
1058.93047 1.42408 0.00422 
1059.98499 1.42407 0.00422 
1061.03952 1.42407 0.00422 
1062.09405 1.42406 0.00422 
1063.14857 1.42405 0.00422 
1064.20310 1.42405 0.00422 
1065.25763 1.42404 0.00422 
1066.31216 1.42404 0.00423 
1067.36668 1.42403 0.00423 
1068.42121 1.42402 0.00423 
1069.47574 1.42402 0.00423 
1070.53027 1.42401 0.00423 
1071.58479 1.42400 0.00423 
1072.63932 1.42400 0.00423 
1073.69385 1.42399 0.00424 
1074.74837 1.42399 0.00424 
1075.80290 1.42398 0.00424 
1076.85743 1.42398 0.00424 
1077.91196 1.42397 0.00424 
1078.96648 1.42396 0.00424 
1080.02101 1.42396 0.00425 
1081.07554 1.42395 0.00425 
1082.13007 1.42395 0.00425 
1083.18459 1.42394 0.00425 
1084.23912 1.42393 0.00425 
1085.29365 1.42393 0.00425 
1086.34817 1.42392 0.00425 
1087.40270 1.42392 0.00425 
1088.45723 1.42391 0.00426 
1089.51176 1.42391 0.00426 
1090.56628 1.42390 0.00426 
1091.62081 1.42389 0.00426 
1092.67534 1.42389 0.00426 
1093.72986 1.42388 0.00426 
1094.78439 1.42388 0.00426 
1095.83892 1.42387 0.00427 
1096.89345 1.42387 0.00427 
1097.94797 1.42386 0.00427 
1099.00250 1.42385 0.00427 
1100.05703 1.42385 0.00427 
1101.11156 1.42384 0.00427 
1102.16608 1.42384 0.00427 
1103.22061 1.42383 0.00428 
1104.27514 1.42383 0.00428 
1105.32966 1.42382 0.00428 
1106.38419 1.42382 0.00428 
1107.43872 1.42381 0.00428 
1108.49325 1.42381 0.00428 
1109.54777 1.42380 0.00428 
1110.60230 1.42379 0.00429 
1111.65683 1.42379 0.00429 
1112.71136 1.42378 0.00429 
1113.76588 1.42378 0.00429 
1114.82041 1.42377 0.00429 
1115.87494 1.42377 0.00429 
1116.92946 1.42376 0.00429 
1117.98399 1.42376 0.00429 
1119.03852 1.42375 0.00430 
1120.09305 1.42375 0.00430 
1121.14757 1.42374 0.00430 
1122.20210 1.42374 0.00430 
1123.25663 1.42373 0.00430 
1124.31116 1.42373 0.00430 
1125.36568 1.42372 0.00430 
1126.42021 1.42372 0.00430 
1127.47474 1.42371 0.00431 
1128.52926 1.42371 0.00431 
1129.58379 1.42370 0.00431 
1130.63832 1.42370 0.00431 
1131.69285 1.42369 0.00431 
1132.74737 1.42369 0.00431 
1133.80190 1.42368 0.00431 
1134.85643 1.42367 0.00431 
1135.91096 1.42367 0.00432 
1136.96548 1.42366 0.00432 
1138.02001 1.42366 0.00432 
1139.07454 1.42365 0.00432 
1140.12906 1.42365 0.00432 
1141.18359 1.42364 0.00432 
1142.23812 1.42364 0.00432 
1143.29265 1.42364 0.00432 
1144.34717 1.42363 0.00433 
1145.40170 1.42363 0.00433 
1146.45623 1.42362 0.00433 
1147.51076 1.42362 0.00433 
1148.56528 1.42361 0.00433 
1149.61981 1.42361 0.00433 
1150.67434 1.42360 0.00433 
1151.72886 1.42360 0.00433 
1152.78339 1.42359 0.00434 
1153.83792 1.42359 0.00434 
1154.89245 1.42358 0.00434 
1155.94697 1.42358 0.00434 
1157.00150 1.42357 0.00434 
1158.05603 1.42357 0.00434 
1159.11056 1.42356 0.00434 
1160.16508 1.42356 0.00434 
1161.21961 1.42355 0.00434 
1162.27414 1.42355 0.00435 
1163.32866 1.42354 0.00435 
1164.38319 1.42354 0.00435 
1165.43772 1.42353 0.00435 
1166.49225 1.42353 0.00435 
1167.54677 1.42353 0.00435 
1168.60130 1.42352 0.00435 
1169.65583 1.42352 0.00435 
1170.71036 1.42351 0.00435 
1171.76488 1.42351 0.00436 
1172.81941 1.42350 0.00436 
1173.87394 1.42350 0.00436 
1174.92846 1.42349 0.00436 
1175.98299 1.42349 0.00436 
1177.03752 1.42348 0.00436 
1178.09205 1.42348 0.00436 
1179.14657 1.42348 0.00436 
1180.20110 1.42347 0.00437 
1181.25563 1.42347 0.00437 
1182.31016 1.42346 0.00437 
1183.36468 1.42346 0.00437 
1184.41921 1.42345 0.00437 
1185.47374 1.42345 0.00437 
1186.52826 1.42344 0.00437 
1187.58279 1.42344 0.00437 
1188.63732 1.42344 0.00437 
1189.69185 1.42343 0.00437 
1190.74637 1.42343 0.00438 
1191.80090 1.42342 0.00438 
1192.85543 1.42342 0.00438 
1193.90995 1.42341 0.00438 
1194.96448 1.42341 0.00438 
1196.01901 1.42341 0.00438 
1197.07354 1.42340 0.00438 
1198.12806 1.42340 0.00438 
1199.18259 1.42339 0.00438 
1200.23712 1.42339 0.00439 
1201.29165 1.42338 0.00439 
1202.34617 1.42338 0.00439 
1203.40070 1.42338 0.00439 
1204.45523 1.42337 0.00439 
1205.50975 1.42337 0.00439 
1206.56428 1.42336 0.00439 
1207.61881 1.42336 0.00439 
1208.67334 1.42335 0.00439 
1209.72786 1.42335 0.00440 
1210.78239 1.42335 0.00440 
1211.83692 1.42334 0.00440 
1212.89145 1.42334 0.00440 
1213.94597 1.42333 0.00440 
1215.00050 1.42333 0.00440 
1216.05503 1.42333 0.00440 
1217.10955 1.42332 0.00440 
1218.16408 1.42332 0.00440 
1219.21861 1.42331 0.00440 
1220.27314 1.42331 0.00441 
1221.32766 1.42331 0.00441 
1222.38219 1.42330 0.00441 
1223.43672 1.42330 0.00441 
1224.49125 1.42329 0.00441 
1225.54577 1.42329 0.00441 
1226.60030 1.42329 0.00441 
1227.65483 1.42328 0.00441 
1228.70935 1.42328 0.00441 
1229.76388 1.42327 0.00441 
1230.81841 1.42327 0.00442 
1231.87294 1.42327 0.00442 
1232.92746 1.42326 0.00442 
1233.98199 1.42326 0.00442 
1235.03652 1.42325 0.00442 
1236.09105 1.42325 0.00442 
1237.14557 1.42325 0.00442 
1238.20010 1.42324 0.00442 
1239.25463 1.42324 0.00442 
1240.30915 1.42323 0.00442 
1241.36368 1.42323 0.00442 
1242.41821 1.42323 0.00443 
1243.47274 1.42322 0.00443 
1244.52726 1.42322 0.00443 
1245.58179 1.42322 0.00443 
1246.63632 1.42321 0.00443 
1247.69085 1.42321 0.00443 
1248.74537 1.42320 0.00443 
1249.79990 1.42320 0.00443 
1250.85443 1.42320 0.00443 
1251.90895 1.42319 0.00443 
1252.96348 1.42319 0.00444 
1254.01801 1.42319 0.00444 
1255.07254 1.42318 0.00444 
1256.12706 1.42318 0.00444 
1257.18159 1.42317 0.00444 
1258.23612 1.42317 0.00444 
1259.29065 1.42317 0.00444 
1260.34517 1.42316 0.00444 
1261.39970 1.42316 0.00444 
1262.45423 1.42316 0.00444 
1263.50875 1.42315 0.00444 
1264.56328 1.42315 0.00445 
1265.61781 1.42315 0.00445 
1266.67234 1.42314 0.00445 
1267.72686 1.42314 0.00445 
1268.78139 1.42313 0.00445 
1269.83592 1.42313 0.00445 
1270.89045 1.42313 0.00445 
1271.94497 1.42312 0.00445 
1272.99950 1.42312 0.00445 
1274.05403 1.42312 0.00445 
1275.10855 1.42311 0.00445 
1276.16308 1.42311 0.00446 
1277.21761 1.42311 0.00446 
1278.27214 1.42310 0.00446 
1279.32666 1.42310 0.00446 
1280.38119 1.42310 0.00446 
1281.43572 1.42309 0.00446 
1282.49025 1.42309 0.00446 
1283.54477 1.42309 0.00446 
1284.59930 1.42308 0.00446 
1285.65383 1.42308 0.00446 
1286.70835 1.42307 0.00446 
1287.76288 1.42307 0.00446 
1288.81741 1.42307 0.00447 
1289.87194 1.42306 0.00447 
1290.92646 1.42306 0.00447 
1291.98099 1.42306 0.00447 
1293.03552 1.42305 0.00447 
1294.09005 1.42305 0.00447 
1295.14457 1.42305 0.00447 
1296.19910 1.42304 0.00447 
1297.25363 1.42304 0.00447 
1298.30815 1.42304 0.00447 
1299.36268 1.42303 0.00447 
1300.41721 1.42303 0.00448 
1301.47174 1.42303 0.00448 
1302.52626 1.42302 0.00448 
1303.58079 1.42302 0.00448 
1304.63532 1.42302 0.00448 
1305.68984 1.42301 0.00448 
1306.74437 1.42301 0.00448 
1307.79890 1.42301 0.00448 
1308.85343 1.42300 0.00448 
1309.90795 1.42300 0.00448 
1310.96248 1.42300 0.00448 
1312.01701 1.42299 0.00448 
1313.07154 1.42299 0.00448 
1314.12606 1.42299 0.00449 
1315.18059 1.42299 0.00449 
1316.23512 1.42298 0.00449 
1317.28964 1.42298 0.00449 
1318.34417 1.42298 0.00449 
1319.39870 1.42297 0.00449 
1320.45323 1.42297 0.00449 
1321.50775 1.42297 0.00449 
1322.56228 1.42296 0.00449 
1323.61681 1.42296 0.00449 
1324.67134 1.42296 0.00449 
1325.72586 1.42295 0.00449 
1326.78039 1.42295 0.00450 
1327.83492 1.42295 0.00450 
1328.88944 1.42294 0.00450 
1329.94397 1.42294 0.00450 
1330.99850 1.42294 0.00450 
1332.05303 1.42293 0.00450 
1333.10755 1.42293 0.00450 
1334.16208 1.42293 0.00450 
1335.21661 1.42293 0.00450 
1336.27114 1.42292 0.00450 
1337.32566 1.42292 0.00450 
1338.38019 1.42292 0.00450 
1339.43472 1.42291 0.00450 
1340.48924 1.42291 0.00451 
1341.54377 1.42291 0.00451 
1342.59830 1.42290 0.00451 
1343.65283 1.42290 0.00451 
1344.70735 1.42290 0.00451 
1345.76188 1.42290 0.00451 
1346.81641 1.42289 0.00451 
1347.87094 1.42289 0.00451 
1348.92546 1.42289 0.00451 
1349.97999 1.42288 0.00451 
1351.03452 1.42288 0.00451 
1352.08904 1.42288 0.00451 
1353.14357 1.42287 0.00451 
1354.19810 1.42287 0.00452 
1355.25263 1.42287 0.00452 
1356.30715 1.42287 0.00452 
1357.36168 1.42286 0.00452 
1358.41621 1.42286 0.00452 
1359.47074 1.42286 0.00452 
1360.52526 1.42285 0.00452 
1361.57979 1.42285 0.00452 
1362.63432 1.42285 0.00452 
1363.68884 1.42285 0.00452 
1364.74337 1.42284 0.00452 
1365.79790 1.42284 0.00452 
1366.85243 1.42284 0.00452 
1367.90695 1.42283 0.00452 
1368.96148 1.42283 0.00453 
1370.01601 1.42283 0.00453 
1371.07054 1.42283 0.00453 
1372.12506 1.42282 0.00453 
1373.17959 1.42282 0.00453 
1374.23412 1.42282 0.00453 
1375.28864 1.42281 0.00453 
1376.34317 1.42281 0.00453 
1377.39770 1.42281 0.00453 
1378.45223 1.42281 0.00453 
1379.50675 1.42280 0.00453 
1380.56128 1.42280 0.00453 
1381.61581 1.42280 0.00453 
1382.67034 1.42279 0.00453 
1383.72486 1.42279 0.00454 
1384.77939 1.42279 0.00454 
1385.83392 1.42279 0.00454 
1386.88844 1.42278 0.00454 
1387.94297 1.42278 0.00454 
1388.99750 1.42278 0.00454 
1390.05203 1.42278 0.00454 
1391.10655 1.42277 0.00454 
1392.16108 1.42277 0.00454 
1393.21561 1.42277 0.00454 
1394.27014 1.42276 0.00454 
1395.32466 1.42276 0.00454 
1396.37919 1.42276 0.00454 
1397.43372 1.42276 0.00454 
1398.48824 1.42275 0.00455 
1399.54277 1.42275 0.00455 
1400.59730 1.42275 0.00455 
1401.65183 1.42275 0.00455 
1402.70635 1.42274 0.00455 
1403.76088 1.42274 0.00455 
1404.81541 1.42274 0.00455 
1405.86993 1.42274 0.00455 
1406.92446 1.42273 0.00455 
1407.97899 1.42273 0.00455 
1409.03352 1.42273 0.00455 
1410.08804 1.42272 0.00455 
1411.14257 1.42272 0.00455 
1412.19710 1.42272 0.00455 
1413.25163 1.42272 0.00455 
1414.30615 1.42271 0.00456 
1415.36068 1.42271 0.00456 
1416.41521 1.42271 0.00456 
1417.46973 1.42271 0.00456 
1418.52426 1.42270 0.00456 
1419.57879 1.42270 0.00456 
1420.63332 1.42270 0.00456 
1421.68784 1.42270 0.00456 
1422.74237 1.42269 0.00456 
1423.79690 1.42269 0.00456 
1424.85143 1.42269 0.00456 
1425.90595 1.42269 0.00456 
1426.96048 1.42268 0.00456 
1428.01501 1.42268 0.00456 
1429.06953 1.42268 0.00456 
1430.12406 1.42268 0.00456 
1431.17859 1.42267 0.00457 
1432.23312 1.42267 0.00457 
1433.28764 1.42267 0.00457 
1434.34217 1.42267 0.00457 
1435.39670 1.42266 0.00457 
1436.45123 1.42266 0.00457 
1437.50575 1.42266 0.00457 
1438.56028 1.42266 0.00457 
1439.61481 1.42265 0.00457 
1440.66933 1.42265 0.00457 
1441.72386 1.42265 0.00457 
1442.77839 1.42265 0.00457 
1443.83292 1.42264 0.00457 
1444.88744 1.42264 0.00457 
1445.94197 1.42264 0.00457 
1446.99650 1.42264 0.00457 
1448.05103 1.42263 0.00458 
1449.10555 1.42263 0.00458 
1450.16008 1.42263 0.00458 
1451.21461 1.42263 0.00458 
1452.26913 1.42263 0.00458 
1453.32366 1.42262 0.00458 
1454.37819 1.42262 0.00458 
1455.43272 1.42262 0.00458 
1456.48724 1.42262 0.00458 
1457.54177 1.42261 0.00458 
1458.59630 1.42261 0.00458 
1459.65083 1.42261 0.00458 
1460.70535 1.42261 0.00458 
1461.75988 1.42260 0.00458 
1462.81441 1.42260 0.00458 
1463.86893 1.42260 0.00458 
1464.92346 1.42260 0.00458 
1465.97799 1.42259 0.00459 
1467.03252 1.42259 0.00459 
1468.08704 1.42259 0.00459 
1469.14157 1.42259 0.00459 
1470.19610 1.42259 0.00459 
1471.25063 1.42258 0.00459 
1472.30515 1.42258 0.00459 
1473.35968 1.42258 0.00459 
1474.41421 1.42258 0.00459 
1475.46873 1.42257 0.00459 
1476.52326 1.42257 0.00459 
1477.57779 1.42257 0.00459 
1478.63232 1.42257 0.00459 
1479.68684 1.42256 0.00459 
1480.74137 1.42256 0.00459 
1481.79590 1.42256 0.00459 
1482.85043 1.42256 0.00459 
1483.90495 1.42256 0.00460 
1484.95948 1.42255 0.00460 
1486.01401 1.42255 0.00460 
1487.06853 1.42255 0.00460 
1488.12306 1.42255 0.00460 
1489.17759 1.42254 0.00460 
1490.23212 1.42254 0.00460 
1491.28664 1.42254 0.00460 
1492.34117 1.42254 0.00460 
1493.39570 1.42254 0.00460 
1494.45023 1.42253 0.00460 
1495.50475 1.42253 0.00460 
1496.55928 1.42253 0.00460 
1497.61381 1.42253 0.00460 
1498.66833 1.42253 0.00460 
1499.72286 1.42252 0.00460 
1500.77739 1.42252 0.00460 
1501.83192 1.42252 0.00460 
1502.88644 1.42252 0.00461 
1503.94097 1.42251 0.00461 
1504.99550 1.42251 0.00461 
1506.05003 1.42251 0.00461 
1507.10455 1.42251 0.00461 
1508.15908 1.42251 0.00461 
1509.21361 1.42250 0.00461 
1510.26813 1.42250 0.00461 
1511.32266 1.42250 0.00461 
1512.37719 1.42250 0.00461 
1513.43172 1.42250 0.00461 
1514.48624 1.42249 0.00461 
1515.54077 1.42249 0.00461 
1516.59530 1.42249 0.00461 
1517.64982 1.42249 0.00461 
1518.70435 1.42249 0.00461 
1519.75888 1.42248 0.00461 
1520.81341 1.42248 0.00461 
1521.86793 1.42248 0.00461 
1522.92246 1.42248 0.00462 
1523.97699 1.42247 0.00462 
1525.03152 1.42247 0.00462 
1526.08604 1.42247 0.00462 
1527.14057 1.42247 0.00462 
1528.19510 1.42247 0.00462 
1529.24962 1.42246 0.00462 
1530.30415 1.42246 0.00462 
1531.35868 1.42246 0.00462 
1532.41321 1.42246 0.00462 
1533.46773 1.42246 0.00462 
1534.52226 1.42245 0.00462 
1535.57679 1.42245 0.00462 
1536.63132 1.42245 0.00462 
1537.68584 1.42245 0.00462 
1538.74037 1.42245 0.00462 
1539.79490 1.42244 0.00462 
1540.84942 1.42244 0.00462 
1541.90395 1.42244 0.00462 
1542.95848 1.42244 0.00463 
1544.01301 1.42244 0.00463 
1545.06753 1.42243 0.00463 
1546.12206 1.42243 0.00463 
1547.17659 1.42243 0.00463 
1548.23112 1.42243 0.00463 
1549.28564 1.42243 0.00463 
1550.34017 1.42242 0.00463 
1551.39470 1.42242 0.00463 
1552.44922 1.42242 0.00463 
1553.50375 1.42242 0.00463 
1554.55828 1.42242 0.00463 
1555.61281 1.42241 0.00463 
1556.66733 1.42241 0.00463 
1557.72186 1.42241 0.00463 
1558.77639 1.42241 0.00463 
1559.83092 1.42241 0.00463 
1560.88544 1.42241 0.00463 
1561.93997 1.42240 0.00463 
1562.99450 1.42240 0.00463 
1564.04902 1.42240 0.00464 
1565.10355 1.42240 0.00464 
1566.15808 1.42240 0.00464 
1567.21261 1.42239 0.00464 
1568.26713 1.42239 0.00464 
1569.32166 1.42239 0.00464 
1570.37619 1.42239 0.00464 
1571.43072 1.42239 0.00464 
1572.48524 1.42238 0.00464 
1573.53977 1.42238 0.00464 
1574.59430 1.42238 0.00464 
1575.64882 1.42238 0.00464 
1576.70335 1.42238 0.00464 
1577.75788 1.42238 0.00464 
1578.81241 1.42237 0.00464 
1579.86693 1.42237 0.00464 
1580.92146 1.42237 0.00464 
1581.97599 1.42237 0.00464 
1583.03052 1.42237 0.00464 
1584.08504 1.42236 0.00464 
1585.13957 1.42236 0.00464 
1586.19410 1.42236 0.00465 
1587.24862 1.42236 0.00465 
1588.30315 1.42236 0.00465 
1589.35768 1.42236 0.00465 
1590.41221 1.42235 0.00465 
1591.46673 1.42235 0.00465 
1592.52126 1.42235 0.00465 
1593.57579 1.42235 0.00465 
1594.63032 1.42235 0.00465 
1595.68484 1.42234 0.00465 
1596.73937 1.42234 0.00465 
1597.79390 1.42234 0.00465 
1598.84842 1.42234 0.00465 
1599.90295 1.42234 0.00465 
1600.95748 1.42234 0.00465 
1602.01201 1.42233 0.00465 
1603.06653 1.42233 0.00465 
1604.12106 1.42233 0.00465 
1605.17559 1.42233 0.00465 
1606.23012 1.42233 0.00465 
1607.28464 1.42232 0.00465 
1608.33917 1.42232 0.00465 
1609.39370 1.42232 0.00466 
1610.44822 1.42232 0.00466 
1611.50275 1.42232 0.00466 
1612.55728 1.42232 0.00466 
1613.61181 1.42231 0.00466 
1614.66633 1.42231 0.00466 
1615.72086 1.42231 0.00466 
1616.77539 1.42231 0.00466 
1617.82991 1.42231 0.00466 
1618.88444 1.42231 0.00466 
1619.93897 1.42230 0.00466 
1620.99350 1.42230 0.00466 
1622.04802 1.42230 0.00466 
1623.10255 1.42230 0.00466 
1624.15708 1.42230 0.00466 
1625.21161 1.42230 0.00466 
1626.26613 1.42229 0.00466 
1627.32066 1.42229 0.00466 
1628.37519 1.42229 0.00466 
1629.42971 1.42229 0.00466 
1630.48424 1.42229 0.00466 
1631.53877 1.42229 0.00466 
1632.59330 1.42228 0.00466 
1633.64782 1.42228 0.00467 
1634.70235 1.42228 0.00467 
1635.75688 1.42228 0.00467 
1636.81141 1.42228 0.00467 
1637.86593 1.42228 0.00467 
1638.92046 1.42227 0.00467 
1639.97499 1.42227 0.00467 
1641.02951 1.42227 0.00467 
1642.08404 1.42227 0.00467 
1643.13857 1.42227 0.00467 
1644.19310 1.42227 0.00467 
1645.24762 1.42226 0.00467 
1646.30215 1.42226 0.00467 
1647.35668 1.42226 0.00467 
1648.41121 1.42226 0.00467 
1649.46573 1.42226 0.00467 
1650.52026 1.42226 0.00467 
1651.57479 1.42225 0.00467 
1652.62931 1.42225 0.00467 
1653.68384 1.42225 0.00467 
1654.73837 1.42225 0.00467 
1655.79290 1.42225 0.00467 
1656.84742 1.42225 0.00467 
1657.90195 1.42224 0.00467 
1658.95648 1.42224 0.00468 
1660.01101 1.42224 0.00468 
1661.06553 1.42224 0.00468 
1662.12006 1.42224 0.00468 
1663.17459 1.42224 0.00468 
1664.22911 1.42224 0.00468 
1665.28364 1.42223 0.00468 
1666.33817 1.42223 0.00468 
1667.39270 1.42223 0.00468 
1668.44722 1.42223 0.00468 
1669.50175 1.42223 0.00468 
1670.55628 1.42223 0.00468 
1671.61081 1.42222 0.00468 
1672.66533 1.42222 0.00468 
1673.71986 1.42222 0.00468 
1674.77439 1.42222 0.00468 
1675.82891 1.42222 0.00468 
1676.88344 1.42222 0.00468 
1677.93797 1.42221 0.00468 
1678.99250 1.42221 0.00468 
1680.04702 1.42221 0.00468 
1681.10155 1.42221 0.00468 
1682.15608 1.42221 0.00468 
1683.21061 1.42221 0.00468 
1684.26513 1.42221 0.00468 
1685.31966 1.42220 0.00469 
1686.37419 1.42220 0.00469 
1687.42871 1.42220 0.00469 
1688.48324 1.42220 0.00469 
1689.53777 1.42220 0.00469 
1690.59230 1.42220 0.00469 
1691.64682 1.42220 0.00469 
1692.70135 1.42219 0.00469 
1693.75588 1.42219 0.00469 
1694.81041 1.42219 0.00469 
1695.86493 1.42219 0.00469 
1696.91946 1.42219 0.00469 
1697.97399 1.42219 0.00469 
1699.02851 1.42218 0.00469 
1700.08304 1.42218 0.00469 
1701.13757 1.42218 0.00469 
1702.19210 1.42218 0.00469 
1703.24662 1.42218 0.00469 
1704.30115 1.42218 0.00469 
1705.35568 1.42218 0.00469 
1706.41021 1.42217 0.00469 
1707.46473 1.42217 0.00469 
1708.51926 1.42217 0.00469 
1709.57379 1.42217 0.00469 
1710.62831 1.42217 0.00469 
1711.68284 1.42217 0.00469 
1712.73737 1.42217 0.00470 
1713.79190 1.42216 0.00470 
1714.84642 1.42216 0.00470 
1715.90095 1.42216 0.00470 
1716.95548 1.42216 0.00470 
1718.01001 1.42216 0.00470 
1719.06453 1.42216 0.00470 
1720.11906 1.42216 0.00470 
1721.17359 1.42215 0.00470 
1722.22811 1.42215 0.00470 
1723.28264 1.42215 0.00470 
1724.33717 1.42215 0.00470 
1725.39170 1.42215 0.00470 
1726.44622 1.42215 0.00470 
1727.50075 1.42215 0.00470 
1728.55528 1.42214 0.00470 
1729.60980 1.42214 0.00470 
1730.66433 1.42214 0.00470 
1731.71886 1.42214 0.00470 
1732.77339 1.42214 0.00470 
1733.82791 1.42214 0.00470 
1734.88244 1.42214 0.00470 
1735.93697 1.42213 0.00470 
1736.99150 1.42213 0.00470 
1738.04602 1.42213 0.00470 
1739.10055 1.42213 0.00470 
1740.15508 1.42213 0.00470 
1741.20960 1.42213 0.00470 
1742.26413 1.42213 0.00471 
1743.31866 1.42213 0.00471 
1744.37319 1.42212 0.00471 
1745.42771 1.42212 0.00471 
1746.48224 1.42212 0.00471 
1747.53677 1.42212 0.00471 
1748.59130 1.42212 0.00471 
1749.64582 1.42212 0.00471 
1750.70035 1.42212 0.00471 
1751.75488 1.42211 0.00471 
1752.80940 1.42211 0.00471 
1753.86393 1.42211 0.00471 
1754.91846 1.42211 0.00471 
1755.97299 1.42211 0.00471 
1757.02751 1.42211 0.00471 
1758.08204 1.42211 0.00471 
1759.13657 1.42210 0.00471 
1760.19110 1.42210 0.00471 
1761.24562 1.42210 0.00471 
1762.30015 1.42210 0.00471 
1763.35468 1.42210 0.00471 
1764.40920 1.42210 0.00471 
1765.46373 1.42210 0.00471 
1766.51826 1.42210 0.00471 
1767.57279 1.42209 0.00471 
1768.62731 1.42209 0.00471 
1769.68184 1.42209 0.00471 
1770.73637 1.42209 0.00471 
1771.79090 1.42209 0.00471 
1772.84542 1.42209 0.00472 
1773.89995 1.42209 0.00472 
1774.95448 1.42209 0.00472 
1776.00900 1.42208 0.00472 
1777.06353 1.42208 0.00472 
1778.11806 1.42208 0.00472 
1779.17259 1.42208 0.00472 
1780.22711 1.42208 0.00472 
1781.28164 1.42208 0.00472 
1782.33617 1.42208 0.00472 
1783.39070 1.42207 0.00472 
1784.44522 1.42207 0.00472 
1785.49975 1.42207 0.00472 
1786.55428 1.42207 0.00472 
1787.60880 1.42207 0.00472 
1788.66333 1.42207 0.00472 
1789.71786 1.42207 0.00472 
1790.77239 1.42207 0.00472 
1791.82691 1.42206 0.00472 
1792.88144 1.42206 0.00472 
1793.93597 1.42206 0.00472 
1794.99050 1.42206 0.00472 
1796.04502 1.42206 0.00472 
1797.09955 1.42206 0.00472 
1798.15408 1.42206 0.00472 
1799.20860 1.42206 0.00472 
1800.26313 1.42205 0.00472 
1801.31766 1.42205 0.00472 
1802.37219 1.42205 0.00472 
1803.42671 1.42205 0.00472 
1804.48124 1.42205 0.00473 
1805.53577 1.42205 0.00473 
1806.59030 1.42205 0.00473 
1807.64482 1.42205 0.00473 
1808.69935 1.42204 0.00473 
1809.75388 1.42204 0.00473 
1810.80840 1.42204 0.00473 
1811.86293 1.42204 0.00473 
1812.91746 1.42204 0.00473 
1813.97199 1.42204 0.00473 
1815.02651 1.42204 0.00473 
1816.08104 1.42204 0.00473 
1817.13557 1.42204 0.00473 
1818.19010 1.42203 0.00473 
1819.24462 1.42203 0.00473 
1820.29915 1.42203 0.00473 
1821.35368 1.42203 0.00473 
1822.40820 1.42203 0.00473 
1823.46273 1.42203 0.00473 
1824.51726 1.42203 0.00473 
1825.57179 1.42203 0.00473 
1826.62631 1.42202 0.00473 
1827.68084 1.42202 0.00473 
1828.73537 1.42202 0.00473 
1829.78989 1.42202 0.00473 
1830.84442 1.42202 0.00473 
1831.89895 1.42202 0.00473 
1832.95348 1.42202 0.00473 
1834.00800 1.42202 0.00473 
1835.06253 1.42201 0.00473 
1836.11706 1.42201 0.00473 
1837.17159 1.42201 0.00473 
1838.22611 1.42201 0.00473 
1839.28064 1.42201 0.00474 
1840.33517 1.42201 0.00474 
1841.38969 1.42201 0.00474 
1842.44422 1.42201 0.00474 
1843.49875 1.42201 0.00474 
1844.55328 1.42200 0.00474 
1845.60780 1.42200 0.00474 
1846.66233 1.42200 0.00474 
1847.71686 1.42200 0.00474 
1848.77139 1.42200 0.00474 
1849.82591 1.42200 0.00474 
1850.88044 1.42200 0.00474 
1851.93497 1.42200 0.00474 
1852.98949 1.42200 0.00474 
1854.04402 1.42199 0.00474 
1855.09855 1.42199 0.00474 
1856.15308 1.42199 0.00474 
1857.20760 1.42199 0.00474 
1858.26213 1.42199 0.00474 
1859.31666 1.42199 0.00474 
1860.37119 1.42199 0.00474 
1861.42571 1.42199 0.00474 
1862.48024 1.42198 0.00474 
1863.53477 1.42198 0.00474 
1864.58929 1.42198 0.00474 
1865.64382 1.42198 0.00474 
1866.69835 1.42198 0.00474 
1867.75288 1.42198 0.00474 
1868.80740 1.42198 0.00474 
1869.86193 1.42198 0.00474 
1870.91646 1.42198 0.00474 
1871.97099 1.42197 0.00474 
1873.02551 1.42197 0.00474 
1874.08004 1.42197 0.00474 
1875.13457 1.42197 0.00475 
1876.18909 1.42197 0.00475 
1877.24362 1.42197 0.00475 
1878.29815 1.42197 0.00475 
1879.35268 1.42197 0.00475 
1880.40720 1.42197 0.00475 
1881.46173 1.42197 0.00475 
1882.51626 1.42196 0.00475 
1883.57079 1.42196 0.00475 
1884.62531 1.42196 0.00475 
1885.67984 1.42196 0.00475 
1886.73437 1.42196 0.00475 
1887.78889 1.42196 0.00475 
1888.84342 1.42196 0.00475 
1889.89795 1.42196 0.00475 
1890.95248 1.42196 0.00475 
1892.00700 1.42195 0.00475 
1893.06153 1.42195 0.00475 
1894.11606 1.42195 0.00475 
1895.17059 1.42195 0.00475 
1896.22511 1.42195 0.00475 
1897.27964 1.42195 0.00475 
1898.33417 1.42195 0.00475 
1899.38869 1.42195 0.00475 
1900.44322 1.42195 0.00475 
1901.49775 1.42194 0.00475 
1902.55228 1.42194 0.00475 
1903.60680 1.42194 0.00475 
1904.66133 1.42194 0.00475 
1905.71586 1.42194 0.00475 
1906.77039 1.42194 0.00475 
1907.82491 1.42194 0.00475 
1908.87944 1.42194 0.00475 
1909.93397 1.42194 0.00475 
1910.98849 1.42194 0.00475 
1912.04302 1.42193 0.00475 
1913.09755 1.42193 0.00476 
1914.15208 1.42193 0.00476 
1915.20660 1.42193 0.00476 
1916.26113 1.42193 0.00476 
1917.31566 1.42193 0.00476 
1918.37019 1.42193 0.00476 
1919.42471 1.42193 0.00476 
1920.47924 1.42193 0.00476 
1921.53377 1.42193 0.00476 
1922.58829 1.42192 0.00476 
1923.64282 1.42192 0.00476 
1924.69735 1.42192 0.00476 
1925.75188 1.42192 0.00476 
1926.80640 1.42192 0.00476 
1927.86093 1.42192 0.00476 
1928.91546 1.42192 0.00476 
1929.96998 1.42192 0.00476 
1931.02451 1.42192 0.00476 
1932.07904 1.42191 0.00476 
1933.13357 1.42191 0.00476 
1934.18809 1.42191 0.00476 
1935.24262 1.42191 0.00476 
1936.29715 1.42191 0.00476 
1937.35168 1.42191 0.00476 
1938.40620 1.42191 0.00476 
1939.46073 1.42191 0.00476 
1940.51526 1.42191 0.00476 
1941.56978 1.42191 0.00476 
1942.62431 1.42191 0.00476 
1943.67884 1.42190 0.00476 
1944.73337 1.42190 0.00476 
1945.78789 1.42190 0.00476 
1946.84242 1.42190 0.00476 
1947.89695 1.42190 0.00476 
1948.95148 1.42190 0.00476 
1950.00600 1.42190 0.00476 
1951.06053 1.42190 0.00476 
1952.11506 1.42190 0.00476 
1953.16958 1.42190 0.00477 
1954.22411 1.42189 0.00477 
1955.27864 1.42189 0.00477 
1956.33317 1.42189 0.00477 
1957.38769 1.42189 0.00477 
1958.44222 1.42189 0.00477 
1959.49675 1.42189 0.00477 
1960.55128 1.42189 0.00477 
1961.60580 1.42189 0.00477 
1962.66033 1.42189 0.00477 
1963.71486 1.42189 0.00477 
1964.76938 1.42188 0.00477 
1965.82391 1.42188 0.00477 
1966.87844 1.42188 0.00477 
1967.93297 1.42188 0.00477 
1968.98749 1.42188 0.00477 
1970.04202 1.42188 0.00477 
1971.09655 1.42188 0.00477 
1972.15108 1.42188 0.00477 
1973.20560 1.42188 0.00477 
1974.26013 1.42188 0.00477 
1975.31466 1.42188 0.00477 
1976.36918 1.42187 0.00477 
1977.42371 1.42187 0.00477 
1978.47824 1.42187 0.00477 
1979.53277 1.42187 0.00477 
1980.58729 1.42187 0.00477 
1981.64182 1.42187 0.00477 
1982.69635 1.42187 0.00477 
1983.75088 1.42187 0.00477 
1984.80540 1.42187 0.00477 
1985.85993 1.42187 0.00477 
1986.91446 1.42186 0.00477 
1987.96898 1.42186 0.00477 
1989.02351 1.42186 0.00477 
1990.07804 1.42186 0.00477 
1991.13257 1.42186 0.00477 
1992.18709 1.42186 0.00477 
1993.24162 1.42186 0.00477 
1994.29615 1.42186 0.00477 
1995.35068 1.42186 0.00477 
1996.40520 1.42186 0.00478 
1997.45973 1.42186 0.00478 
1998.51426 1.42185 0.00478 
1999.56878 1.42185 0.00478 
2000.62331 1.42185 0.00478 
2001.67784 1.42185 0.00478 
2002.73237 1.42185 0.00478 
2003.78689 1.42185 0.00478 
2004.84142 1.42185 0.00478 
2005.89595 1.42185 0.00478 
2006.95048 1.42185 0.00478 
2008.00500 1.42185 0.00478 
2009.05953 1.42185 0.00478 
2010.11406 1.42185 0.00478 
2011.16858 1.42184 0.00478 
2012.22311 1.42184 0.00478 
2013.27764 1.42184 0.00478 
2014.33217 1.42184 0.00478 
2015.38669 1.42184 0.00478 
2016.44122 1.42184 0.00478 
2017.49575 1.42184 0.00478 
2018.55028 1.42184 0.00478 
2019.60480 1.42184 0.00478 
2020.65933 1.42184 0.00478 
2021.71386 1.42184 0.00478 
2022.76838 1.42183 0.00478 
2023.82291 1.42183 0.00478 
2024.87744 1.42183 0.00478 
2025.93197 1.42183 0.00478 
2026.98649 1.42183 0.00478 
2028.04102 1.42183 0.00478 
2029.09555 1.42183 0.00478 
2030.15008 1.42183 0.00478 
2031.20460 1.42183 0.00478 
2032.25913 1.42183 0.00478 
2033.31366 1.42183 0.00478 
2034.36818 1.42182 0.00478 
2035.42271 1.42182 0.00478 
2036.47724 1.42182 0.00478 
2037.53177 1.42182 0.00478 
2038.58629 1.42182 0.00478 
2039.64082 1.42182 0.00478 
2040.69535 1.42182 0.00478 
2041.74987 1.42182 0.00478 
2042.80440 1.42182 0.00479 
2043.85893 1.42182 0.00479 
2044.91346 1.42182 0.00479 
2045.96798 1.42182 0.00479 
2047.02251 1.42181 0.00479 
2048.07704 1.42181 0.00479 
2049.13157 1.42181 0.00479 
2050.18609 1.42181 0.00479 
2051.24062 1.42181 0.00479 
2052.29515 1.42181 0.00479 
2053.34967 1.42181 0.00479 
2054.40420 1.42181 0.00479 
2055.45873 1.42181 0.00479 
2056.51326 1.42181 0.00479 
2057.56778 1.42181 0.00479 
2058.62231 1.42181 0.00479 
2059.67684 1.42180 0.00479 
2060.73137 1.42180 0.00479 
2061.78589 1.42180 0.00479 
2062.84042 1.42180 0.00479 
2063.89495 1.42180 0.00479 
2064.94947 1.42180 0.00479 
2066.00400 1.42180 0.00479 
2067.05853 1.42180 0.00479 
2068.11306 1.42180 0.00479 
2069.16758 1.42180 0.00479 
2070.22211 1.42180 0.00479 
2071.27664 1.42180 0.00479 
2072.33117 1.42179 0.00479 
2073.38569 1.42179 0.00479 
2074.44022 1.42179 0.00479 
2075.49475 1.42179 0.00479 
2076.54927 1.42179 0.00479 
2077.60380 1.42179 0.00479 
2078.65833 1.42179 0.00479 
2079.71286 1.42179 0.00479 
2080.76738 1.42179 0.00479 
2081.82191 1.42179 0.00479 
2082.87644 1.42179 0.00479 
2083.93097 1.42179 0.00479 
2084.98549 1.42179 0.00479 
2086.04002 1.42178 0.00479 
2087.09455 1.42178 0.00479 
2088.14907 1.42178 0.00479 
2089.20360 1.42178 0.00479 
2090.25813 1.42178 0.00479 
2091.31266 1.42178 0.00479 
2092.36718 1.42178 0.00480 
2093.42171 1.42178 0.00480 
2094.47624 1.42178 0.00480 
2095.53077 1.42178 0.00480 
2096.58529 1.42178 0.00480 
2097.63982 1.42178 0.00480 
2098.69435 1.42177 0.00480 
2099.74887 1.42177 0.00480 
2100.80340 1.42177 0.00480 
2101.85793 1.42177 0.00480 
2102.91246 1.42177 0.00480 
2103.96698 1.42177 0.00480 
2105.02151 1.42177 0.00480 
2106.07604 1.42177 0.00480 
2107.13057 1.42177 0.00480 
2108.18509 1.42177 0.00480 
2109.23962 1.42177 0.00480 
2110.29415 1.42177 0.00480 
2111.34867 1.42177 0.00480 
2112.40320 1.42176 0.00480 
2113.45773 1.42176 0.00480 
2114.51226 1.42176 0.00480 
2115.56678 1.42176 0.00480 
2116.62131 1.42176 0.00480 
2117.67584 1.42176 0.00480 
2118.73037 1.42176 0.00480 
2119.78489 1.42176 0.00480 
2120.83942 1.42176 0.00480 
2121.89395 1.42176 0.00480 
2122.94847 1.42176 0.00480 
2124.00300 1.42176 0.00480 
2125.05753 1.42176 0.00480 
2126.11206 1.42175 0.00480 
2127.16658 1.42175 0.00480 
2128.22111 1.42175 0.00480 
2129.27564 1.42175 0.00480 
2130.33017 1.42175 0.00480 
2131.38469 1.42175 0.00480 
2132.43922 1.42175 0.00480 
2133.49375 1.42175 0.00480 
2134.54827 1.42175 0.00480 
2135.60280 1.42175 0.00480 
2136.65733 1.42175 0.00480 
2137.71186 1.42175 0.00480 
2138.76638 1.42175 0.00480 
2139.82091 1.42175 0.00480 
2140.87544 1.42174 0.00480 
2141.92996 1.42174 0.00480 
2142.98449 1.42174 0.00480 
2144.03902 1.42174 0.00480 
2145.09355 1.42174 0.00480 
2146.14807 1.42174 0.00481 
2147.20260 1.42174 0.00481 
2148.25713 1.42174 0.00481 
2149.31166 1.42174 0.00481 
2150.36618 1.42174 0.00481 
2151.42071 1.42174 0.00481 
2152.47524 1.42174 0.00481 
2153.52976 1.42174 0.00481 
2154.58429 1.42174 0.00481 
2155.63882 1.42173 0.00481 
2156.69335 1.42173 0.00481 
2157.74787 1.42173 0.00481 
2158.80240 1.42173 0.00481 
2159.85693 1.42173 0.00481 
2160.91146 1.42173 0.00481 
2161.96598 1.42173 0.00481 
2163.02051 1.42173 0.00481 
2164.07504 1.42173 0.00481 
2165.12956 1.42173 0.00481 
2166.18409 1.42173 0.00481 
2167.23862 1.42173 0.00481 
2168.29315 1.42173 0.00481 
2169.34767 1.42173 0.00481 
2170.40220 1.42172 0.00481 
2171.45673 1.42172 0.00481 
2172.51126 1.42172 0.00481 
2173.56578 1.42172 0.00481 
2174.62031 1.42172 0.00481 
2175.67484 1.42172 0.00481 
2176.72936 1.42172 0.00481 
2177.78389 1.42172 0.00481 
2178.83842 1.42172 0.00481 
2179.89295 1.42172 0.00481 
2180.94747 1.42172 0.00481 
2182.00200 1.42172 0.00481 
2183.05653 1.42172 0.00481 
2184.11106 1.42172 0.00481 
2185.16558 1.42171 0.00481 
2186.22011 1.42171 0.00481 
2187.27464 1.42171 0.00481 
2188.32916 1.42171 0.00481 
2189.38369 1.42171 0.00481 
2190.43822 1.42171 0.00481 
2191.49275 1.42171 0.00481 
2192.54727 1.42171 0.00481 
2193.60180 1.42171 0.00481 
2194.65633 1.42171 0.00481 
2195.71086 1.42171 0.00481 
2196.76538 1.42171 0.00481 
2197.81991 1.42171 0.00481 
2198.87444 1.42171 0.00481 
2199.92896 1.42171 0.00481 
2200.98349 1.42170 0.00481 
2202.03802 1.42170 0.00481 
2203.09255 1.42170 0.00482 
2204.14707 1.42170 0.00482 
2205.20160 1.42170 0.00482 
2206.25613 1.42170 0.00482 
2207.31066 1.42170 0.00482 
2208.36518 1.42170 0.00482 
2209.41971 1.42170 0.00482 
2210.47424 1.42170 0.00482 
2211.52876 1.42170 0.00482 
2212.58329 1.42170 0.00482 
2213.63782 1.42170 0.00482 
2214.69235 1.42170 0.00482 
2215.74687 1.42169 0.00482 
2216.80140 1.42169 0.00482 
2217.85593 1.42169 0.00482 
2218.91046 1.42169 0.00482 
2219.96498 1.42169 0.00482 
2221.01951 1.42169 0.00482 
2222.07404 1.42169 0.00482 
2223.12856 1.42169 0.00482 
2224.18309 1.42169 0.00482 
2225.23762 1.42169 0.00482 
2226.29215 1.42169 0.00482 
2227.34667 1.42169 0.00482 
2228.40120 1.42169 0.00482 
2229.45573 1.42169 0.00482 
2230.51026 1.42169 0.00482 
2231.56478 1.42169 0.00482 
2232.61931 1.42168 0.00482 
2233.67384 1.42168 0.00482 
2234.72836 1.42168 0.00482 
2235.78289 1.42168 0.00482 
2236.83742 1.42168 0.00482 
2237.89195 1.42168 0.00482 
2238.94647 1.42168 0.00482 
2240.00100 1.42168 0.00482 
2241.05553 1.42168 0.00482 
2242.11006 1.42168 0.00482 
2243.16458 1.42168 0.00482 
2244.21911 1.42168 0.00482 
2245.27364 1.42168 0.00482 
2246.32816 1.42168 0.00482 
2247.38269 1.42168 0.00482 
2248.43722 1.42167 0.00482 
2249.49175 1.42167 0.00482 
2250.54627 1.42167 0.00482 
2251.60080 1.42167 0.00482 
2252.65533 1.42167 0.00482 
2253.70985 1.42167 0.00482 
2254.76438 1.42167 0.00482 
2255.81891 1.42167 0.00482 
2256.87344 1.42167 0.00482 
2257.92796 1.42167 0.00482 
2258.98249 1.42167 0.00482 
2260.03702 1.42167 0.00482 
2261.09155 1.42167 0.00482 
2262.14607 1.42167 0.00482 
2263.20060 1.42167 0.00482 
2264.25513 1.42167 0.00482 
2265.30965 1.42166 0.00482 
2266.36418 1.42166 0.00483 
2267.41871 1.42166 0.00483 
2268.47324 1.42166 0.00483 
2269.52776 1.42166 0.00483 
2270.58229 1.42166 0.00483 
2271.63682 1.42166 0.00483 
2272.69135 1.42166 0.00483 
2273.74587 1.42166 0.00483 
2274.80040 1.42166 0.00483 
2275.85493 1.42166 0.00483 
2276.90945 1.42166 0.00483 
2277.96398 1.42166 0.00483 
2279.01851 1.42166 0.00483 
2280.07304 1.42166 0.00483 
2281.12756 1.42166 0.00483 
2282.18209 1.42165 0.00483 
2283.23662 1.42165 0.00483 
2284.29115 1.42165 0.00483 
2285.34567 1.42165 0.00483 
2286.40020 1.42165 0.00483 
2287.45473 1.42165 0.00483 
2288.50925 1.42165 0.00483 
2289.56378 1.42165 0.00483 
2290.61831 1.42165 0.00483 
2291.67284 1.42165 0.00483 
2292.72736 1.42165 0.00483 
2293.78189 1.42165 0.00483 
2294.83642 1.42165 0.00483 
2295.89095 1.42165 0.00483 
2296.94547 1.42165 0.00483 
2298.00000 1.42165 0.00483 
